Acc_X,Acc_Y,Acc_Z,Gyro_X,Gyro_Y,Gyro_Z
0.0005,0.0025,0.1232,0.1225,-0.0788,-0.1531
-0.0001,0.0026,0.1232,0.1050,-0.0744,-0.1531
0.0004,0.0032,0.1238,0.1094,-0.0788,-0.1575
0.0004,0.0023,0.1233,0.1138,-0.0831,-0.1531
0.0002,0.0029,0.1232,0.1181,-0.0744,-0.1575
0.0005,0.0027,0.1233,0.1138,-0.0656,-0.1575
0.0001,0.0030,0.1230,0.0963,-0.0788,-0.1531
0.0004,0.0032,0.1234,0.1050,-0.0613,-0.1488
0.0006,0.0029,0.1233,0.1094,-0.0831,-0.1444
0.0004,0.0030,0.1235,0.1094,-0.0613,-0.1444
0.0004,0.0025,0.1235,0.0963,-0.0744,-0.1488
0.0004,0.0029,0.1236,0.1225,-0.0569,-0.1488
0.0000,0.0026,0.1232,0.1094,-0.0788,-0.1488
0.0005,0.0029,0.1235,0.1006,-0.0875,-0.1488
0.0000,0.0027,0.1235,0.1094,-0.0831,-0.1488
0.0001,0.0027,0.1231,0.1138,-0.0700,-0.1663
0.0007,0.0025,0.1231,0.1006,-0.0700,-0.1488
0.0006,0.0023,0.1234,0.1181,-0.0744,-0.1575
0.0004,0.0030,0.1235,0.1050,-0.0613,-0.1531
0.0001,0.0028,0.1232,0.1138,-0.0744,-0.1444
0.0000,0.0027,0.1235,0.1094,-0.0744,-0.1531
0.0002,0.0022,0.1233,0.1050,-0.0831,-0.1575
0.0007,0.0032,0.1236,0.1050,-0.0569,-0.1444
0.0001,0.0029,0.1230,0.1138,-0.0788,-0.1575
0.0001,0.0024,0.1230,0.1050,-0.0788,-0.1619
0.0002,0.0029,0.1230,0.1094,-0.0875,-0.1575
0.0003,0.0027,0.1229,0.0963,-0.0700,-0.1488
0.0009,0.0029,0.1230,0.0919,-0.0744,-0.1531
0.0008,0.0026,0.1230,0.1094,-0.0788,-0.1444
0.0005,0.0028,0.1238,0.1094,-0.0831,-0.1575
0.0001,0.0026,0.1235,0.1050,-0.0744,-0.1488
0.0002,0.0023,0.1229,0.1138,-0.0831,-0.1575
0.0000,0.0023,0.1231,0.1181,-0.0788,-0.1531
0.0010,0.0026,0.1233,0.1006,-0.0700,-0.1488
0.0000,0.0027,0.1240,0.1094,-0.0744,-0.1488
0.0004,0.0031,0.1234,0.1050,-0.0700,-0.1488
0.0004,0.0030,0.1229,0.1050,-0.0875,-0.1531
0.0009,0.0027,0.1233,0.1094,-0.0744,-0.1619
-0.0001,0.0029,0.1235,0.1094,-0.0700,-0.1488
0.0004,0.0027,0.1232,0.1138,-0.0744,-0.1444
-0.0001,0.0023,0.1235,0.1094,-0.0656,-0.1488
0.0002,0.0029,0.1230,0.1094,-0.0831,-0.1488
0.0008,0.0033,0.1233,0.1138,-0.0963,-0.1575
0.0005,0.0035,0.1230,0.1094,-0.0963,-0.1488
0.0004,0.0032,0.1236,0.1094,-0.0875,-0.1531
-0.0002,0.0026,0.1230,0.1050,-0.0700,-0.1531
0.0005,0.0025,0.1238,0.1181,-0.0744,-0.1444
0.0005,0.0030,0.1237,0.1006,-0.0744,-0.1488
0.0003,0.0026,0.1241,0.1006,-0.0875,-0.1531
-0.0003,0.0026,0.1242,0.1050,-0.0525,-0.1531
0.0002,0.0023,0.1233,0.1094,-0.0569,-0.1531
0.0001,0.0029,0.1233,0.1138,-0.0744,-0.1488
0.0005,0.0030,0.1231,0.1181,-0.0700,-0.1575
0.0004,0.0033,0.1235,0.1050,-0.0744,-0.1575
0.0010,0.0025,0.1225,0.1050,-0.0700,-0.1575
0.0007,0.0031,0.1230,0.1094,-0.0700,-0.1531
0.0002,0.0030,0.1231,0.1094,-0.0788,-0.1531
0.0009,0.0029,0.1236,0.1050,-0.0744,-0.1488
0.0001,0.0027,0.1231,0.1050,-0.0700,-0.1575
0.0001,0.0024,0.1233,0.1094,-0.0744,-0.1575
0.0002,0.0029,0.1237,0.1094,-0.0875,-0.1444
0.0007,0.0033,0.1233,0.1138,-0.0788,-0.1575
0.0001,0.0027,0.1230,0.0963,-0.0875,-0.1488
0.0006,0.0027,0.1232,0.1050,-0.0744,-0.1575
0.0004,0.0029,0.1232,0.1094,-0.0875,-0.1575
0.0005,0.0023,0.1228,0.1138,-0.0744,-0.1575
0.0012,0.0023,0.1229,0.1006,-0.0875,-0.1575
0.0010,0.0024,0.1232,0.1050,-0.0525,-0.1575
0.0004,0.0034,0.1234,0.1050,-0.0700,-0.1531
-0.0001,0.0028,0.1236,0.0919,-0.0569,-0.1531
0.0007,0.0023,0.1238,0.1094,-0.0656,-0.1531
-0.0004,0.0027,0.1231,0.0963,-0.0700,-0.1575
-0.0001,0.0028,0.1232,0.1006,-0.0831,-0.1575
0.0003,0.0030,0.1238,0.1094,-0.0875,-0.1488
0.0004,0.0030,0.1235,0.1181,-0.0744,-0.1488
0.0006,0.0028,0.1232,0.1181,-0.0744,-0.1619
0.0002,0.0028,0.1235,0.0919,-0.0744,-0.1488
0.0001,0.0024,0.1226,0.1138,-0.0744,-0.1575
0.0001,0.0024,0.1232,0.1094,-0.0788,-0.1444
0.0004,0.0023,0.1231,0.1050,-0.0700,-0.1619
0.0004,0.0028,0.1236,0.1050,-0.0700,-0.1531
0.0007,0.0033,0.1229,0.1138,-0.0831,-0.1488
0.0007,0.0027,0.1233,0.0963,-0.0613,-0.1488
0.0004,0.0026,0.1235,0.1138,-0.0788,-0.1575
0.0003,0.0027,0.1233,0.1050,-0.0744,-0.1444
0.0004,0.0026,0.1232,0.1138,-0.0744,-0.1488
0.0002,0.0024,0.1237,0.1050,-0.0788,-0.1444
0.0004,0.0029,0.1235,0.1006,-0.0656,-0.1575
-0.0002,0.0030,0.1241,0.1225,-0.0788,-0.1575
0.0004,0.0034,0.1235,0.1138,-0.0875,-0.1575
0.0001,0.0029,0.1235,0.1050,-0.0744,-0.1531
-0.0001,0.0029,0.1233,0.1006,-0.0831,-0.1575
0.0003,0.0030,0.1236,0.1050,-0.0700,-0.1444
0.0000,0.0032,0.1233,0.1094,-0.0656,-0.1531
0.0001,0.0027,0.1232,0.1094,-0.0744,-0.1488
0.0002,0.0026,0.1230,0.1050,-0.0700,-0.1575
0.0001,0.0027,0.1239,0.0963,-0.0744,-0.1531
0.0002,0.0022,0.1233,0.1050,-0.0919,-0.1488
0.0001,0.0030,0.1235,0.1138,-0.0744,-0.1575
0.0001,0.0029,0.1230,0.1094,-0.0788,-0.1444
0.0002,0.0026,0.1230,0.1138,-0.0788,-0.1444
-0.0001,0.0029,0.1233,0.1094,-0.0613,-0.1575
0.0001,0.0027,0.1231,0.1094,-0.0831,-0.1488
0.0002,0.0031,0.1233,0.1050,-0.0788,-0.1531
0.0002,0.0027,0.1229,0.1050,-0.0744,-0.1531
0.0004,0.0032,0.1239,0.1138,-0.0875,-0.1488
0.0001,0.0028,0.1235,0.1006,-0.0700,-0.1531
-0.0001,0.0026,0.1235,0.1094,-0.0831,-0.1575
0.0003,0.0025,0.1232,0.1181,-0.0831,-0.1444
0.0004,0.0029,0.1236,0.1006,-0.0700,-0.1575
0.0003,0.0025,0.1240,0.0963,-0.0744,-0.1619
0.0008,0.0027,0.1230,0.1181,-0.0744,-0.1488
0.0004,0.0030,0.1238,0.1050,-0.0788,-0.1488
0.0007,0.0029,0.1236,0.1181,-0.0788,-0.1531
-0.0004,0.0033,0.1235,0.1094,-0.0875,-0.1531
0.0001,0.0027,0.1232,0.1006,-0.0875,-0.1575
0.0008,0.0029,0.1240,0.1006,-0.0744,-0.1575
0.0003,0.0029,0.1235,0.1006,-0.0788,-0.1531
0.0001,0.0029,0.1235,0.1138,-0.0831,-0.1575
0.0003,0.0021,0.1232,0.1138,-0.0744,-0.1488
-0.0002,0.0027,0.1232,0.1006,-0.0744,-0.1619
0.0001,0.0033,0.1233,0.0875,-0.0875,-0.1488
0.0001,0.0030,0.1235,0.1094,-0.0831,-0.1575
0.0006,0.0026,0.1227,0.1050,-0.0875,-0.1444
0.0005,0.0032,0.1236,0.1094,-0.0919,-0.1575
0.0005,0.0034,0.1231,0.1050,-0.0788,-0.1575
0.0000,0.0031,0.1233,0.1181,-0.0788,-0.1488
0.0005,0.0030,0.1234,0.1138,-0.0700,-0.1488
0.0001,0.0025,0.1236,0.1006,-0.0656,-0.1531
0.0007,0.0026,0.1236,0.1094,-0.0919,-0.1575
-0.0002,0.0019,0.1236,0.1094,-0.0744,-0.1531
0.0007,0.0024,0.1230,0.1050,-0.0700,-0.1531
0.0007,0.0034,0.1238,0.1138,-0.0788,-0.1531
0.0007,0.0025,0.1237,0.1094,-0.0963,-0.1531
0.0004,0.0031,0.1237,0.1050,-0.0788,-0.1575
0.0001,0.0028,0.1233,0.1050,-0.1006,-0.1531
-0.0001,0.0023,0.1236,0.1006,-0.0831,-0.1531
0.0004,0.0026,0.1233,0.1225,-0.0963,-0.1444
0.0008,0.0025,0.1239,0.0963,-0.0831,-0.1575
0.0001,0.0033,0.1241,0.0963,-0.0875,-0.1488
0.0003,0.0030,0.1233,0.1006,-0.0963,-0.1575
0.0001,0.0027,0.1228,0.1225,-0.0963,-0.1444
0.0005,0.0025,0.1238,0.0963,-0.1138,-0.1488
0.0001,0.0027,0.1236,0.1006,-0.1094,-0.1531
0.0002,0.0032,0.1236,0.1094,-0.0919,-0.1575
0.0005,0.0024,0.1232,0.0963,-0.0875,-0.1444
0.0010,0.0026,0.1222,0.0963,-0.1138,-0.1488
0.0009,0.0024,0.1229,0.1006,-0.0831,-0.1400
0.0007,0.0026,0.1225,0.1006,-0.0875,-0.1531
0.0014,0.0016,0.1229,0.1138,-0.0831,-0.1400
0.0012,0.0021,0.1227,0.1138,-0.0831,-0.1531
0.0004,0.0021,0.1235,0.0963,-0.0744,-0.1531
0.0006,0.0022,0.1229,0.1094,-0.0788,-0.1531
0.0001,0.0024,0.1227,0.1050,-0.0744,-0.1488
0.0010,0.0024,0.1238,0.1094,-0.0700,-0.1575
0.0002,0.0034,0.1240,0.1094,-0.0744,-0.1488
0.0010,0.0031,0.1232,0.1138,-0.0744,-0.1488
0.0005,0.0029,0.1236,0.1050,-0.0569,-0.1488
0.0007,0.0024,0.1231,0.1006,-0.0700,-0.1531
0.0006,0.0027,0.1232,0.1181,-0.0656,-0.1488
0.0004,0.0030,0.1234,0.0963,-0.0656,-0.1488
0.0002,0.0029,0.1236,0.1006,-0.0744,-0.1531
-0.0151,0.0024,0.1232,0.1050,-0.0788,-0.1531
0.0004,0.0027,0.1242,0.1006,-0.0744,-0.1531
0.0006,0.0029,0.1236,0.1050,-0.0700,-0.1488
-0.0007,0.0026,0.1235,0.1050,-0.0744,-0.1619
0.0000,0.0034,0.1236,0.1006,-0.0656,-0.1531
0.0005,0.0027,0.1231,0.0963,-0.0788,-0.1488
0.0005,0.0031,0.1234,0.0963,-0.0788,-0.1531
0.0001,0.0024,0.1232,0.1050,-0.0788,-0.1531
-0.0001,0.0023,0.1231,0.1094,-0.0744,-0.1531
0.0002,0.0021,0.1233,0.1006,-0.0656,-0.1531
0.0007,0.0029,0.1231,0.1050,-0.0700,-0.1531
0.0001,0.0029,0.1232,0.1181,-0.0700,-0.1531
0.0006,0.0029,0.1237,0.1094,-0.0656,-0.1531
0.0001,0.0030,0.1233,0.1138,-0.0656,-0.1531
-0.0002,0.0027,0.1232,0.1094,-0.0744,-0.1488
-0.0001,0.0029,0.1233,0.1181,-0.0700,-0.1531
-0.0005,0.0029,0.1235,0.1138,-0.0831,-0.1444
0.0002,0.0030,0.1230,0.1138,-0.0700,-0.1444
0.0005,0.0024,0.1236,0.1138,-0.0744,-0.1444
0.0008,0.0023,0.1236,0.1050,-0.0788,-0.1575
0.0007,0.0025,0.1236,0.1050,-0.0656,-0.1488
0.0008,0.0023,0.1230,0.1050,-0.0788,-0.1531
0.0007,0.0023,0.1232,0.1094,-0.0788,-0.1531
-0.0001,0.0027,0.1226,0.1050,-0.0831,-0.1575
-0.0002,0.0026,0.1235,0.1181,-0.0700,-0.1531
0.0001,0.0028,0.1230,0.0963,-0.0744,-0.1575
0.0002,0.0030,0.1230,0.1138,-0.0481,-0.1575
0.0013,0.0027,0.1227,0.1138,-0.0656,-0.1488
0.0009,0.0025,0.1224,0.1094,-0.0569,-0.1488
0.0010,0.0021,0.1224,0.1138,-0.0656,-0.1619
0.0015,0.0017,0.1219,0.1050,-0.0350,-0.1575
0.0019,0.0019,0.1221,0.1094,-0.0394,-0.1488
0.0010,0.0029,0.1404,0.1050,-0.0525,-0.1531
0.0009,0.0029,0.1252,0.1094,-0.0613,-0.1531
-0.0012,0.0034,0.1231,0.1269,-0.0700,-0.1444
-0.0018,0.0029,0.1249,0.1050,-0.0744,-0.1488
-0.0005,0.0024,0.1261,0.0831,-0.0875,-0.1531
0.0001,0.0030,0.1250,0.0875,-0.0963,-0.1488
0.0002,0.0022,0.1220,0.0963,-0.0919,-0.1444
0.0011,0.0016,0.1208,0.1050,-0.0919,-0.1488
0.0021,0.0021,0.1216,0.1050,-0.0700,-0.1444
0.0025,0.0024,0.1227,0.1050,-0.0525,-0.1531
0.0017,0.0020,0.1223,0.1094,-0.0656,-0.1531
0.0009,0.0025,0.1223,0.1138,-0.0394,-0.1488
-0.0003,0.0026,0.1238,0.1094,-0.0350,-0.1488
-0.0001,0.0027,0.1248,0.1138,-0.0700,-0.1488
-0.0011,0.0030,0.1252,0.0963,-0.0788,-0.1531
-0.0004,0.0032,0.1241,0.1138,-0.0481,-0.1488
-0.0002,0.0026,0.1243,0.1094,-0.0831,-0.1575
0.0003,0.0029,0.1233,0.1138,-0.0919,-0.1488
0.0013,0.0021,0.1227,0.1138,-0.0919,-0.1488
0.0013,0.0024,0.1216,0.1225,-0.0744,-0.1531
0.0016,0.0022,0.1222,0.1050,-0.0656,-0.1575
0.0013,0.0024,0.1216,0.0875,-0.0525,-0.1531
0.0007,0.0032,0.1232,0.1094,-0.0569,-0.1531
0.0006,0.0028,0.1244,0.1006,-0.0613,-0.1444
0.0004,0.0030,0.1247,0.1138,-0.0700,-0.1575
-0.0001,0.0029,0.1239,0.1138,-0.0569,-0.1488
-0.0001,0.0024,0.1248,0.1138,-0.0831,-0.1575
0.0010,0.0027,0.1240,0.1050,-0.1006,-0.1531
0.0004,0.0026,0.1235,0.1094,-0.0788,-0.1531
0.0007,0.0024,0.1219,0.1138,-0.0744,-0.1531
0.0010,0.0018,0.1222,0.0919,-0.0744,-0.1531
0.0018,0.0018,0.1222,0.1050,-0.0613,-0.1444
0.0018,0.0027,0.1219,0.1094,-0.0788,-0.1575
0.0012,0.0026,0.1230,0.0919,-0.0525,-0.1531
0.0005,0.0026,0.1233,0.1094,-0.0613,-0.1575
-0.0001,0.0025,0.1244,0.1006,-0.0613,-0.1488
-0.0004,0.0030,0.1249,0.1094,-0.0700,-0.1531
-0.0006,0.0034,0.1243,0.1050,-0.0744,-0.1575
0.0001,0.0028,0.1232,0.1181,-0.0919,-0.1488
0.0002,0.0028,0.1234,0.1138,-0.0788,-0.1444
0.0010,0.0026,0.1226,0.1006,-0.0831,-0.1444
0.0012,0.0021,0.1226,0.1050,-0.0831,-0.1488
0.0015,0.0022,0.1229,0.1050,-0.0744,-0.1488
0.0012,0.0018,0.1229,0.0963,-0.0788,-0.1619
0.0005,0.0023,0.1238,0.1050,-0.0613,-0.1531
0.0000,0.0028,0.1240,0.1050,-0.0700,-0.1488
0.0005,0.0021,0.1241,0.1138,-0.0831,-0.1488
0.0001,0.0027,0.1240,0.1006,-0.0744,-0.1488
-0.0001,0.0023,0.1235,0.1094,-0.0744,-0.1444
0.0000,0.0027,0.1233,0.1138,-0.0875,-0.1488
0.0005,0.0030,0.1232,0.1225,-0.0788,-0.1488
0.0005,0.0031,0.1228,0.1181,-0.0831,-0.1488
0.0010,0.0025,0.1221,0.1225,-0.0613,-0.1531
0.0009,0.0030,0.1224,0.1181,-0.0656,-0.1531
0.0002,0.0029,0.1230,0.0963,-0.0831,-0.1531
0.0007,0.0030,0.1233,0.1006,-0.0744,-0.1531
-0.0001,0.0027,0.1238,0.1094,-0.0656,-0.1400
0.0004,0.0032,0.1232,0.1050,-0.0613,-0.1663
-0.0007,0.0032,0.1243,0.1006,-0.0831,-0.1400
0.0002,0.0029,0.1245,0.1006,-0.0831,-0.1488
0.0005,0.0024,0.1232,0.1006,-0.0919,-0.1444
0.0004,0.0029,0.1232,0.1006,-0.0788,-0.1575
0.0010,0.0018,0.1234,0.1050,-0.0875,-0.1488
0.0004,0.0024,0.1233,0.1138,-0.0744,-0.1488
0.0007,0.0026,0.1234,0.1094,-0.0788,-0.1619
0.0005,0.0027,0.1233,0.1138,-0.0700,-0.1444
0.0007,0.0028,0.1231,0.1050,-0.0700,-0.1444
-0.0002,0.0030,0.1235,0.1181,-0.0788,-0.1575
0.0001,0.0025,0.1233,0.1138,-0.0875,-0.1575
0.0002,0.0029,0.1234,0.1138,-0.0788,-0.1488
0.0000,0.0032,0.1240,0.1050,-0.0613,-0.1444
0.0000,0.0024,0.1230,0.1094,-0.0831,-0.1531
-0.0001,0.0031,0.1233,0.1006,-0.0656,-0.1488
0.0005,0.0026,0.1233,0.1138,-0.0744,-0.1531
-0.0005,0.0024,0.1232,0.1094,-0.0831,-0.1488
0.0007,0.0023,0.1232,0.1094,-0.0875,-0.1488
0.0004,0.0034,0.1227,0.1006,-0.0788,-0.1619
-0.0002,0.0021,0.1229,0.1181,-0.0875,-0.1531
0.0005,0.0027,0.1235,0.1094,-0.0700,-0.1488
0.0001,0.0023,0.1233,0.1094,-0.0613,-0.1531
0.0002,0.0026,0.1232,0.1050,-0.0744,-0.1400
0.0011,0.0026,0.1236,0.1006,-0.0831,-0.1400
0.0003,0.0030,0.1237,0.1006,-0.0700,-0.1531
0.0156,0.0026,0.1232,0.1050,-0.0788,-0.1619
0.0003,0.0023,0.1233,0.1050,-0.0700,-0.1488
0.0002,0.0024,0.1230,0.1181,-0.0744,-0.1575
0.0002,0.0026,0.1231,0.1006,-0.0788,-0.1531
0.0004,0.0032,0.1229,0.1094,-0.0831,-0.1531
0.0001,0.0023,0.1226,0.1138,-0.0788,-0.1619
0.0004,0.0034,0.1232,0.1050,-0.0744,-0.1488
0.0005,0.0024,0.1232,0.1181,-0.0788,-0.1663
0.0002,0.0027,0.1238,0.1138,-0.0875,-0.1444
0.0007,0.0029,0.1235,0.0963,-0.0744,-0.1575
0.0005,0.0028,0.1235,0.1094,-0.0744,-0.1531
0.0005,0.0028,0.1233,0.1094,-0.0744,-0.1531
0.0010,0.0025,0.1231,0.1050,-0.0788,-0.1444
0.0003,0.0026,0.1237,0.1050,-0.0656,-0.1575
0.0001,0.0022,0.1230,0.0919,-0.0744,-0.1444
0.0007,0.0026,0.1234,0.1050,-0.0700,-0.1488
0.0003,0.0027,0.1232,0.1050,-0.0438,-0.1575
0.0004,0.0028,0.1240,0.1138,-0.0700,-0.1575
0.0007,0.0032,0.1238,0.1094,-0.0656,-0.1488
0.0000,0.0026,0.1233,0.1138,-0.0700,-0.1488
0.0001,0.0029,0.1236,0.1225,-0.0788,-0.1444
-0.0002,0.0021,0.1230,0.1225,-0.0875,-0.1531
-0.0001,0.0028,0.1232,0.1094,-0.0788,-0.1400
0.0001,0.0029,0.1229,0.1138,-0.0919,-0.1619
0.0002,0.0029,0.1229,0.1050,-0.0700,-0.1531
0.0002,0.0031,0.1232,0.1138,-0.0700,-0.1531
-0.0002,0.0027,0.1233,0.0963,-0.0744,-0.1531
0.0002,0.0031,0.1238,0.1181,-0.0788,-0.1575
0.0006,0.0027,0.1230,0.1138,-0.0744,-0.1531
-0.0001,0.0030,0.1232,0.1006,-0.0700,-0.1531
-0.0002,0.0027,0.1232,0.0919,-0.0744,-0.1488
0.0005,0.0020,0.1235,0.0963,-0.0656,-0.1488
-0.0001,0.0024,0.1231,0.1225,-0.0831,-0.1488
0.0004,0.0028,0.1233,0.1094,-0.0744,-0.1531
0.0004,0.0024,0.1235,0.1050,-0.0700,-0.1619
0.0009,0.0028,0.1231,0.1138,-0.0788,-0.1531
0.0004,0.0029,0.1237,0.1094,-0.0831,-0.1575
0.0005,0.0027,0.1238,0.1094,-0.0656,-0.1575
0.0003,0.0036,0.1230,0.1138,-0.0700,-0.1619
0.0004,0.0029,0.1232,0.1138,-0.0656,-0.1575
0.0006,0.0023,0.1238,0.1006,-0.0875,-0.1531
0.0004,0.0030,0.1233,0.1050,-0.0656,-0.1575
0.0003,0.0031,0.1236,0.1094,-0.0875,-0.1531
-0.0001,0.0024,0.1231,0.1006,-0.0744,-0.1444
0.0003,0.0024,0.1230,0.1050,-0.0875,-0.1488
0.0004,0.0025,0.1235,0.1094,-0.0700,-0.1531
0.0007,0.0027,0.1231,0.1006,-0.0744,-0.1531
0.0005,0.0030,0.1234,0.1006,-0.0656,-0.1531
0.0005,0.0032,0.1239,0.1138,-0.0831,-0.1531
0.0010,0.0024,0.1228,0.1138,-0.0525,-0.1531
-0.0001,0.0031,0.1232,0.1094,-0.0744,-0.1531
0.0008,0.0027,0.1238,0.1138,-0.0831,-0.1488
0.0002,0.0028,0.1229,0.1138,-0.0700,-0.1531
0.0002,0.0024,0.1231,0.0963,-0.0744,-0.1444
-0.0001,0.0023,0.1230,0.0963,-0.0831,-0.1619
0.0002,0.0029,0.1232,0.1181,-0.0700,-0.1488
-0.0001,0.0027,0.1236,0.1050,-0.0788,-0.1531
0.0003,0.0031,0.1234,0.1050,-0.0788,-0.1531
0.0000,0.0021,0.1239,0.1050,-0.0656,-0.1619
0.0000,0.0025,0.1236,0.1181,-0.0744,-0.1444
0.0001,0.0023,0.1229,0.1181,-0.0700,-0.1663
0.0001,0.0027,0.1232,0.1006,-0.0831,-0.1444
0.0005,0.0030,0.1234,0.1006,-0.0700,-0.1619
0.0004,0.0034,0.1230,0.1006,-0.0788,-0.1531
0.0002,0.0027,0.1233,0.1094,-0.0831,-0.1575
0.0001,0.0021,0.1232,0.1006,-0.0744,-0.1444
0.0007,0.0025,0.1238,0.1050,-0.0744,-0.1575
0.0009,0.0023,0.1225,0.1138,-0.0744,-0.1488
0.0009,0.0026,0.1233,0.1225,-0.0788,-0.1488
0.0003,0.0036,0.1237,0.1050,-0.0744,-0.1488
0.0000,0.0026,0.1236,0.0963,-0.0831,-0.1663
0.0002,0.0026,0.1230,0.1138,-0.0656,-0.1575
0.0002,0.0026,0.1229,0.1225,-0.0656,-0.1531
-0.0001,0.0027,0.1233,0.1006,-0.0831,-0.1488
-0.0002,0.0023,0.1233,0.1050,-0.0875,-0.1575
0.0004,0.0029,0.1226,0.0919,-0.0831,-0.1531
0.0000,0.0031,0.1238,0.1006,-0.0831,-0.1531
0.0006,0.0024,0.1236,0.1006,-0.0788,-0.1531
-0.0001,0.0023,0.1235,0.1050,-0.0919,-0.1488
0.0004,0.0032,0.1235,0.1094,-0.0656,-0.1400
0.0002,0.0024,0.1235,0.1050,-0.0875,-0.1619
0.0006,0.0029,0.1238,0.1138,-0.0963,-0.1444
-0.0001,0.0020,0.1235,0.1094,-0.0656,-0.1488
0.0001,0.0021,0.1238,0.1138,-0.0788,-0.1444
0.0004,0.0032,0.1236,0.1138,-0.0831,-0.1575
0.0003,0.0031,0.1234,0.1094,-0.0831,-0.1444
0.0005,0.0028,0.1231,0.1094,-0.0700,-0.1488
-0.0001,0.0028,0.1236,0.1050,-0.0613,-0.1531
0.0002,0.0027,0.1235,0.1094,-0.0700,-0.1444
0.0004,0.0026,0.1237,0.1138,-0.0788,-0.1356
0.0004,0.0026,0.1235,0.1181,-0.0700,-0.1575
0.0011,0.0024,0.1236,0.1094,-0.0875,-0.1488
0.0004,0.0032,0.1232,0.1225,-0.0831,-0.1488
0.0002,0.0029,0.1232,0.1050,-0.0700,-0.1575
0.0001,0.0032,0.1238,0.1138,-0.0963,-0.1488
0.0001,0.0032,0.1234,0.1050,-0.0744,-0.1488
0.0005,0.0025,0.1232,0.1138,-0.0700,-0.1619
0.0010,0.0021,0.1230,0.1050,-0.0788,-0.1488
-0.0149,0.0028,0.1235,0.1094,-0.0656,-0.1531
0.0004,0.0031,0.1240,0.1050,-0.0744,-0.1531
0.0006,0.0026,0.1232,0.1050,-0.0788,-0.1488
0.0001,0.0024,0.1239,0.1225,-0.0788,-0.1531
0.0007,0.0025,0.1234,0.1006,-0.0831,-0.1488
0.0006,0.0028,0.1232,0.1006,-0.0525,-0.1575
0.0002,0.0023,0.1234,0.1050,-0.0831,-0.1400
0.0007,0.0027,0.1234,0.1050,-0.0613,-0.1488
0.0009,0.0021,0.1231,0.1050,-0.0788,-0.1488
-0.0005,0.0026,0.1235,0.1094,-0.0700,-0.1575
-0.0001,0.0027,0.1238,0.0875,-0.0788,-0.1488
-0.0001,0.0030,0.1235,0.1269,-0.0525,-0.1619
0.0004,0.0025,0.1233,0.0963,-0.0656,-0.1531
0.0006,0.0023,0.1232,0.1050,-0.0700,-0.1619
0.0007,0.0027,0.1235,0.1138,-0.0744,-0.1575
0.0001,0.0026,0.1229,0.1138,-0.0700,-0.1619
0.0001,0.0024,0.1235,0.1138,-0.0788,-0.1531
0.0154,0.0026,0.1227,0.1006,-0.0744,-0.1575
0.0004,0.0030,0.1238,0.1006,-0.0613,-0.1444
0.0002,0.0035,0.1232,0.1050,-0.0875,-0.1619
0.0007,0.0023,0.1234,0.1181,-0.0700,-0.1444
0.0003,0.0034,0.1229,0.1050,-0.0700,-0.1488
0.0003,0.0027,0.1230,0.1094,-0.0788,-0.1488
0.0005,0.0034,0.1235,0.1006,-0.0963,-0.1531
0.0005,0.0029,0.1233,0.1094,-0.0744,-0.1619
0.0002,0.0029,0.1238,0.1050,-0.0919,-0.1575
0.0001,0.0024,0.1231,0.1050,-0.0744,-0.1444
0.0006,0.0028,0.1228,0.1181,-0.0831,-0.1531
-0.0001,0.0034,0.1231,0.1006,-0.0613,-0.1531
0.0000,0.0028,0.1236,0.0919,-0.0831,-0.1488
-0.0005,0.0026,0.1232,0.1094,-0.0700,-0.1531
0.0003,0.0033,0.1235,0.1050,-0.0744,-0.1488
0.0004,0.0026,0.1237,0.1050,-0.0744,-0.1488
0.0008,0.0031,0.1235,0.0963,-0.0963,-0.1663
0.0002,0.0032,0.1237,0.1138,-0.0744,-0.1488
-0.0002,0.0029,0.1237,0.1138,-0.0744,-0.1575
0.0006,0.0025,0.1240,0.1050,-0.0700,-0.1531
0.0007,0.0026,0.1234,0.1094,-0.0831,-0.1444
0.0002,0.0032,0.1229,0.1006,-0.0788,-0.1575
0.0002,0.0029,0.1233,0.1050,-0.0744,-0.1531
0.0003,0.0033,0.1238,0.1225,-0.0919,-0.1531
0.0007,0.0028,0.1236,0.1050,-0.0788,-0.1488
0.0000,0.0029,0.1236,0.1138,-0.0700,-0.1488
-0.0001,0.0027,0.1230,0.1050,-0.0656,-0.1575
0.0004,0.0030,0.1229,0.1138,-0.0744,-0.1531
-0.0001,0.0030,0.1229,0.1050,-0.0744,-0.1488
0.0001,0.0028,0.1233,0.1094,-0.0744,-0.1531
0.0001,0.0034,0.1234,0.1006,-0.0788,-0.1400
0.0004,0.0035,0.1233,0.1006,-0.0744,-0.1488
0.0002,0.0027,0.1227,0.1094,-0.0788,-0.1531
0.0009,0.0023,0.1230,0.1094,-0.0875,-0.1488
0.0004,0.0034,0.1236,0.1050,-0.0656,-0.1488
0.0010,0.0031,0.1239,0.1181,-0.0788,-0.1531
0.0003,0.0028,0.1233,0.1006,-0.0919,-0.1531
0.0001,0.0026,0.1231,0.1138,-0.0744,-0.1575
-0.0001,0.0027,0.1232,0.1050,-0.0656,-0.1488
0.0002,0.0028,0.1237,0.1138,-0.0656,-0.1575
0.0002,0.0026,0.1230,0.1050,-0.0656,-0.1531
-0.0002,0.0026,0.1234,0.1094,-0.0700,-0.1444
0.0004,0.0030,0.1239,0.1138,-0.0875,-0.1488
0.0002,0.0029,0.1235,0.1094,-0.0744,-0.1575
-0.0006,0.0027,0.1239,0.0963,-0.0656,-0.1575
0.0003,0.0030,0.1234,0.1050,-0.0831,-0.1488
0.0008,0.0027,0.1233,0.1050,-0.0656,-0.1488
0.0003,0.0025,0.1234,0.1225,-0.1006,-0.1531
0.0000,0.0022,0.1233,0.1094,-0.0831,-0.1531
0.0003,0.0027,0.1236,0.0963,-0.0875,-0.1531
0.0004,0.0029,0.1236,0.1094,-0.0788,-0.1488
0.0002,0.0023,0.1243,0.1138,-0.0744,-0.1619
0.0005,0.0027,0.1234,0.1138,-0.0788,-0.1531
-0.0005,0.0026,0.1230,0.1138,-0.0788,-0.1488
0.0005,0.0027,0.1231,0.1094,-0.0656,-0.1531
-0.0003,0.0024,0.1230,0.1181,-0.0919,-0.1531
0.0008,0.0027,0.1227,0.1006,-0.0700,-0.1400
-0.0001,0.0026,0.1232,0.1094,-0.0656,-0.1531
0.0002,0.0029,0.1230,0.1181,-0.0788,-0.1488
0.0008,0.0029,0.1232,0.1181,-0.0744,-0.1575
0.0000,0.0024,0.1230,0.1050,-0.0831,-0.1488
0.0010,0.0025,0.1234,0.1006,-0.0788,-0.1575
-0.0002,0.0026,0.1235,0.0963,-0.0744,-0.1531
0.0004,0.0027,0.1236,0.1094,-0.0656,-0.1444
0.0003,0.0027,0.1230,0.1094,-0.0744,-0.1531
-0.0001,0.0027,0.1229,0.1006,-0.0744,-0.1531
-0.0152,0.0023,0.1233,0.1138,-0.0831,-0.1444
0.0009,0.0029,0.1231,0.1050,-0.0656,-0.1488
0.0001,0.0029,0.1230,0.1138,-0.0788,-0.1488
0.0007,0.0030,0.1239,0.0963,-0.0656,-0.1531
0.0000,0.0021,0.1233,0.1094,-0.0788,-0.1531
0.0007,0.0028,0.1238,0.1094,-0.0700,-0.1356
0.0004,0.0029,0.1237,0.1138,-0.0788,-0.1488
0.0004,0.0029,0.1235,0.1094,-0.0744,-0.1531
0.0001,0.0027,0.1240,0.1225,-0.0656,-0.1488
0.0002,0.0030,0.1234,0.0919,-0.0700,-0.1531
0.0005,0.0032,0.1233,0.1138,-0.0788,-0.1488
0.0004,0.0028,0.1234,0.1006,-0.0744,-0.1575
0.0002,0.0031,0.1232,0.0963,-0.0831,-0.1531
0.0002,0.0029,0.1229,0.1006,-0.0788,-0.1531
0.0000,0.0026,0.1229,0.1050,-0.0700,-0.1575
0.0003,0.0031,0.1238,0.1138,-0.0831,-0.1575
0.0000,0.0028,0.1229,0.1138,-0.0700,-0.1575
-0.0004,0.0028,0.1230,0.1094,-0.0919,-0.1488
0.0001,0.0024,0.1233,0.1094,-0.0569,-0.1488
0.0003,0.0025,0.1238,0.1094,-0.0788,-0.1444
-0.0002,0.0028,0.1235,0.1181,-0.0700,-0.1575
0.0001,0.0024,0.1232,0.1138,-0.0788,-0.1488
0.0004,0.0030,0.1237,0.1006,-0.0700,-0.1488
0.0004,0.0022,0.1232,0.1050,-0.0700,-0.1444
0.0003,0.0025,0.1236,0.1006,-0.0831,-0.1488
0.0001,0.0029,0.1230,0.1138,-0.0788,-0.1488
0.0000,0.0032,0.1232,0.1050,-0.0613,-0.1575
0.0001,0.0032,0.1233,0.1006,-0.0831,-0.1531
0.0005,0.0032,0.1237,0.1094,-0.0788,-0.1575
0.0008,0.0024,0.1238,0.1006,-0.0875,-0.1531
-0.0001,0.0028,0.1239,0.1050,-0.0831,-0.1531
0.0001,0.0025,0.1234,0.1094,-0.0788,-0.1575
0.0002,0.0027,0.1236,0.1050,-0.0788,-0.1531
0.0004,0.0027,0.1232,0.1181,-0.0788,-0.1488
0.0005,0.0027,0.1233,0.1050,-0.0744,-0.1531
0.0011,0.0023,0.1236,0.1006,-0.0875,-0.1531
0.0002,0.0025,0.1233,0.0963,-0.0656,-0.1444
0.0004,0.0027,0.1229,0.1094,-0.0788,-0.1444
0.0003,0.0027,0.1231,0.1094,-0.0831,-0.1575
0.0004,0.0033,0.1235,0.1006,-0.0788,-0.1531
0.0004,0.0030,0.1232,0.1138,-0.0875,-0.1619
0.0000,0.0029,0.1236,0.1050,-0.0656,-0.1531
0.0007,0.0029,0.1238,0.1050,-0.0744,-0.1531
0.0005,0.0032,0.1238,0.1138,-0.0788,-0.1531
0.0001,0.0034,0.1233,0.0963,-0.0788,-0.1575
-0.0004,0.0027,0.1232,0.0963,-0.0656,-0.1488
0.0008,0.0027,0.1232,0.1094,-0.0875,-0.1531
0.0009,0.0028,0.1239,0.1269,-0.0831,-0.1444
0.0002,0.0029,0.1236,0.1006,-0.0569,-0.1531
0.0156,0.0029,0.1237,0.1094,-0.0744,-0.1531
0.0002,0.0022,0.1236,0.1094,-0.0613,-0.1531
0.0005,0.0026,0.1238,0.1006,-0.0744,-0.1488
0.0005,0.0030,0.1234,0.1050,-0.0700,-0.1444
0.0001,0.0026,0.1233,0.1138,-0.0656,-0.1575
-0.0001,0.0024,0.1230,0.1138,-0.0788,-0.1488
0.0006,0.0029,0.1240,0.1094,-0.0875,-0.1619
-0.0003,0.0026,0.1231,0.1050,-0.0744,-0.1663
0.0005,0.0030,0.1233,0.1094,-0.0700,-0.1531
0.0003,0.0035,0.1236,0.1050,-0.0919,-0.1444
0.0001,0.0032,0.1233,0.1050,-0.0744,-0.1575
-0.0002,0.0024,0.1233,0.1181,-0.0744,-0.1444
0.0001,0.0029,0.1235,0.1050,-0.0788,-0.1575
0.0007,0.0023,0.1235,0.1138,-0.0656,-0.1531
0.0002,0.0027,0.1238,0.1094,-0.0700,-0.1575
0.0001,0.0024,0.1230,0.1050,-0.0875,-0.1488
-0.0002,0.0028,0.1232,0.1050,-0.0744,-0.1531
0.0006,0.0027,0.1232,0.1138,-0.0788,-0.1444
0.0005,0.0029,0.1235,0.1094,-0.0788,-0.1575
0.0004,0.0029,0.1229,0.1006,-0.0788,-0.1488
0.0003,0.0034,0.1233,0.1094,-0.0744,-0.1531
-0.0001,0.0019,0.1236,0.1138,-0.0744,-0.1531
0.0006,0.0021,0.1235,0.0963,-0.0788,-0.1619
0.0006,0.0032,0.1232,0.1181,-0.0875,-0.1488
0.0010,0.0031,0.1238,0.1138,-0.0700,-0.1488
-0.0002,0.0021,0.1234,0.1050,-0.0788,-0.1531
0.0006,0.0027,0.1240,0.1225,-0.0744,-0.1488
0.0002,0.0021,0.1236,0.1138,-0.0656,-0.1444
0.0005,0.0029,0.1235,0.1138,-0.0700,-0.1575
0.0009,0.0024,0.1234,0.1138,-0.0875,-0.1488
0.0005,0.0032,0.1233,0.1138,-0.0788,-0.1575
0.0004,0.0030,0.1238,0.1094,-0.0700,-0.1531
0.0008,0.0031,0.1238,0.1138,-0.0744,-0.1531
0.0006,0.0029,0.1241,0.1181,-0.0788,-0.1488
-0.0004,0.0030,0.1238,0.1006,-0.0700,-0.1531
0.0002,0.0027,0.1232,0.1050,-0.0831,-0.1488
0.0002,0.0024,0.1236,0.1006,-0.0744,-0.1575
0.0005,0.0030,0.1232,0.1094,-0.0744,-0.1531
0.0003,0.0028,0.1235,0.1006,-0.0744,-0.1488
0.0001,0.0027,0.1239,0.1050,-0.0788,-0.1488
0.0000,0.0030,0.1235,0.1050,-0.0656,-0.1488
0.0005,0.0030,0.1235,0.0919,-0.0744,-0.1531
-0.0003,0.0026,0.1233,0.1050,-0.0875,-0.1488
0.0001,0.0027,0.1232,0.1269,-0.0788,-0.1488
0.0002,0.0030,0.1233,0.1050,-0.0788,-0.1444
0.0003,0.0025,0.1231,0.1094,-0.0700,-0.1575
0.0003,0.0027,0.1235,0.1094,-0.0744,-0.1575
0.0008,0.0032,0.1231,0.0963,-0.0744,-0.1488
0.0001,0.0032,0.1232,0.1050,-0.0875,-0.1531
0.0001,0.0032,0.1238,0.1050,-0.0919,-0.1531
0.0002,0.0032,0.1236,0.1050,-0.0831,-0.1531
0.0004,0.0030,0.1233,0.1094,-0.0831,-0.1531
0.0006,0.0024,0.1233,0.1050,-0.0700,-0.1488
0.0010,0.0029,0.1235,0.1094,-0.0700,-0.1488
0.0002,0.0028,0.1240,0.1181,-0.0700,-0.1400
0.0006,0.0032,0.1234,0.1181,-0.0788,-0.1575
0.0002,0.0027,0.1234,0.1138,-0.0744,-0.1575
0.0004,0.0029,0.1236,0.1181,-0.0700,-0.1531
-0.0001,0.0029,0.1238,0.1050,-0.0700,-0.1488
0.0006,0.0027,0.1231,0.1006,-0.0613,-0.1619
0.0002,0.0024,0.1233,0.1181,-0.0700,-0.1531
-0.0001,0.0027,0.1237,0.1138,-0.0656,-0.1619
0.0007,0.0033,0.1235,0.1138,-0.0744,-0.1531
0.0002,0.0027,0.1240,0.1094,-0.0700,-0.1531
0.0007,0.0030,0.1236,0.1006,-0.0744,-0.1488
-0.0001,0.0027,0.1228,0.1138,-0.0656,-0.1444
0.0004,0.0028,0.1239,0.1050,-0.0788,-0.1444
0.0002,0.0024,0.1236,0.1138,-0.0656,-0.1531
0.0001,0.0024,0.1238,0.1181,-0.0788,-0.1575
-0.0002,0.0027,0.1233,0.1094,-0.0831,-0.1619
0.0002,0.0027,0.1230,0.1006,-0.0788,-0.1531
0.0000,0.0027,0.1238,0.1094,-0.0788,-0.1575
0.0003,0.0026,0.1233,0.1050,-0.0744,-0.1575
0.0004,0.0024,0.1229,0.1006,-0.0744,-0.1531
0.0002,0.0029,0.1234,0.1181,-0.0831,-0.1488
0.0002,0.0028,0.1232,0.1050,-0.0700,-0.1575
0.0004,0.0027,0.1237,0.1094,-0.0744,-0.1444
0.0004,0.0024,0.1233,0.1094,-0.0700,-0.1575
0.0007,0.0027,0.1237,0.1181,-0.0831,-0.1444
0.0007,0.0027,0.1235,0.0963,-0.0744,-0.1488
-0.0001,0.0030,0.1236,0.1006,-0.0831,-0.1488
0.0155,0.0027,0.1233,0.1138,-0.0656,-0.1575
0.0009,0.0027,0.1235,0.1050,-0.0963,-0.1488
-0.0002,0.0026,0.1230,0.1006,-0.0700,-0.1531
0.0007,0.0025,0.1236,0.1050,-0.0744,-0.1575
0.0002,0.0025,0.1236,0.1006,-0.0831,-0.1575
0.0003,0.0034,0.1236,0.1138,-0.0656,-0.1575
0.0002,0.0025,0.1235,0.1050,-0.0788,-0.1619
0.0002,0.0024,0.1231,0.1138,-0.0700,-0.1531
0.0009,0.0027,0.1224,0.1138,-0.0788,-0.1444
0.0001,0.0033,0.1237,0.1006,-0.0700,-0.1575
0.0001,0.0029,0.1242,0.1269,-0.0700,-0.1575
0.0006,0.0031,0.1235,0.1138,-0.0656,-0.1531
0.0005,0.0032,0.1224,0.1138,-0.0788,-0.1531
0.0007,0.0026,0.1235,0.1138,-0.0700,-0.1488
0.0000,0.0030,0.1235,0.1138,-0.0744,-0.1488
0.0000,0.0027,0.1235,0.1181,-0.0700,-0.1444
0.0007,0.0025,0.1237,0.1138,-0.0788,-0.1488
0.0001,0.0030,0.1235,0.1094,-0.0613,-0.1531
0.0004,0.0029,0.1227,0.1181,-0.0481,-0.1488
0.0002,0.0030,0.1239,0.1050,-0.0569,-0.1575
0.0001,0.0034,0.1232,0.1181,-0.0656,-0.1444
0.0001,0.0027,0.1233,0.1094,-0.0744,-0.1575
0.0000,0.0028,0.1230,0.1050,-0.0613,-0.1531
0.0002,0.0029,0.1235,0.1006,-0.0569,-0.1575
0.0002,0.0024,0.1231,0.1094,-0.0875,-0.1531
-0.0003,0.0026,0.1238,0.1138,-0.0788,-0.1619
0.0003,0.0030,0.1233,0.1181,-0.0831,-0.1531
0.0005,0.0029,0.1236,0.1094,-0.0744,-0.1400
0.0004,0.0032,0.1234,0.1138,-0.0788,-0.1531
0.0004,0.0030,0.1237,0.1094,-0.0700,-0.1619
0.0005,0.0028,0.1233,0.1094,-0.0569,-0.1488
-0.0001,0.0026,0.1228,0.1181,-0.0744,-0.1575
0.0000,0.0020,0.1238,0.1138,-0.0656,-0.1531
0.0005,0.0030,0.1236,0.0963,-0.0613,-0.1575
0.0007,0.0030,0.1232,0.0875,-0.0744,-0.1531
0.0003,0.0024,0.1233,0.1094,-0.0613,-0.1575
0.0003,0.0027,0.1236,0.1006,-0.0656,-0.1444
0.0004,0.0030,0.1236,0.1225,-0.0744,-0.1575
0.0003,0.0025,0.1235,0.1225,-0.0788,-0.1488
-0.0001,0.0032,0.1232,0.1006,-0.0788,-0.1531
0.0006,0.0029,0.1235,0.1094,-0.0656,-0.1444
-0.0002,0.0030,0.1235,0.1006,-0.0744,-0.1575
0.0004,0.0032,0.1235,0.1094,-0.0788,-0.1444
0.0002,0.0026,0.1235,0.1050,-0.0788,-0.1531
0.0002,0.0024,0.1236,0.1094,-0.0788,-0.1444
0.0005,0.0027,0.1236,0.1181,-0.0831,-0.1488
0.0007,0.0027,0.1233,0.1138,-0.0831,-0.1488
0.0002,0.0027,0.1228,0.1050,-0.0875,-0.1488
0.0005,0.0026,0.1234,0.1006,-0.0919,-0.1488
-0.0001,0.0024,0.1229,0.1050,-0.0788,-0.1488
-0.0003,0.0027,0.1235,0.1138,-0.0788,-0.1531
0.0001,0.0030,0.1232,0.1094,-0.0700,-0.1488
0.0008,0.0024,0.1231,0.0963,-0.0744,-0.1488
0.0003,0.0032,0.1231,0.1094,-0.0700,-0.1619
0.0003,0.0030,0.1235,0.0963,-0.0656,-0.1575
0.0001,0.0023,0.1232,0.1094,-0.0656,-0.1531
0.0005,0.0031,0.1236,0.0963,-0.0831,-0.1488
0.0005,0.0030,0.1234,0.1094,-0.0788,-0.1619
0.0002,0.0023,0.1231,0.1050,-0.0875,-0.1488
0.0005,0.0031,0.1238,0.1006,-0.0744,-0.1531
0.0006,0.0027,0.1232,0.1050,-0.0613,-0.1488
0.0003,0.0032,0.1237,0.1138,-0.0744,-0.1444
0.0007,0.0032,0.1237,0.1050,-0.0700,-0.1531
0.0003,0.0030,0.1235,0.1050,-0.0831,-0.1575
-0.0004,0.0031,0.1237,0.1138,-0.0831,-0.1531
0.0009,0.0026,0.1229,0.1181,-0.0788,-0.1488
0.0155,0.0024,0.1234,0.1138,-0.0744,-0.1619
-0.0002,0.0026,0.1231,0.1006,-0.0919,-0.1488
0.0001,0.0034,0.1232,0.1138,-0.0788,-0.1619
-0.0004,0.0025,0.1236,0.1138,-0.0919,-0.1531
0.0017,0.0022,0.1233,0.1094,-0.0744,-0.1444
0.0001,0.0023,0.1234,0.1094,-0.0744,-0.1444
-0.0002,0.0022,0.1239,0.1006,-0.0831,-0.1488
-0.0001,0.0032,0.1236,0.1138,-0.0788,-0.1488
0.0005,0.0030,0.1235,0.1138,-0.0831,-0.1531
0.0001,0.0034,0.1234,0.1138,-0.0788,-0.1488
0.0002,0.0023,0.1233,0.0963,-0.0700,-0.1619
0.0001,0.0023,0.1236,0.1094,-0.0919,-0.1531
0.0005,0.0030,0.1232,0.1050,-0.0919,-0.1619
0.0002,0.0028,0.1239,0.1094,-0.0919,-0.1575
0.0002,0.0030,0.1234,0.1094,-0.0788,-0.1619
0.0003,0.0033,0.1232,0.1050,-0.0744,-0.1531
0.0007,0.0023,0.1239,0.1050,-0.0700,-0.1575
-0.0001,0.0023,0.1234,0.1094,-0.0875,-0.1531
0.0004,0.0026,0.1239,0.1006,-0.0788,-0.1531
0.0005,0.0030,0.1232,0.1006,-0.0656,-0.1531
0.0007,0.0023,0.1227,0.1181,-0.0656,-0.1400
0.0002,0.0027,0.1232,0.1006,-0.0744,-0.1444
0.0005,0.0021,0.1228,0.1094,-0.0656,-0.1531
0.0002,0.0029,0.1234,0.1006,-0.0744,-0.1575
0.0004,0.0028,0.1233,0.1181,-0.0744,-0.1488
-0.0001,0.0027,0.1241,0.1094,-0.0700,-0.1531
0.0005,0.0028,0.1241,0.0963,-0.0656,-0.1575
0.0006,0.0023,0.1236,0.0963,-0.0613,-0.1531
0.0000,0.0030,0.1238,0.1225,-0.0700,-0.1531
0.0000,0.0024,0.1231,0.1050,-0.0744,-0.1619
0.0009,0.0025,0.1240,0.1181,-0.0744,-0.1488
0.0007,0.0031,0.1232,0.1094,-0.0700,-0.1531
0.0006,0.0025,0.1232,0.1094,-0.0656,-0.1531
-0.0001,0.0025,0.1227,0.1094,-0.0831,-0.1488
0.0005,0.0027,0.1235,0.1050,-0.0656,-0.1531
0.0007,0.0028,0.1237,0.1050,-0.0744,-0.1488
-0.0001,0.0030,0.1235,0.1050,-0.0788,-0.1488
0.0001,0.0032,0.1239,0.1050,-0.0788,-0.1575
0.0012,0.0029,0.1234,0.0963,-0.0788,-0.1488
0.0002,0.0030,0.1233,0.1138,-0.0656,-0.1619
0.0001,0.0027,0.1230,0.1050,-0.0788,-0.1575
0.0006,0.0029,0.1237,0.1050,-0.0875,-0.1531
0.0004,0.0030,0.1236,0.1006,-0.0788,-0.1531
-0.0005,0.0030,0.1235,0.0919,-0.0744,-0.1531
0.0000,0.0026,0.1228,0.1138,-0.0700,-0.1488
0.0002,0.0030,0.1237,0.1094,-0.0788,-0.1444
0.0013,0.0028,0.1233,0.1094,-0.0744,-0.1444
0.0004,0.0024,0.1233,0.1050,-0.0831,-0.1575
0.0003,0.0026,0.1232,0.1006,-0.0744,-0.1488
-0.0152,0.0021,0.1234,0.1006,-0.0613,-0.1575
-0.0001,0.0025,0.1236,0.1050,-0.0613,-0.1531
0.0001,0.0034,0.1236,0.1094,-0.0875,-0.1575
0.0005,0.0026,0.1230,0.1138,-0.0700,-0.1400
0.0009,0.0029,0.1235,0.1181,-0.0613,-0.1531
0.0004,0.0027,0.1237,0.1094,-0.0700,-0.1531
0.0002,0.0023,0.1234,0.1050,-0.0788,-0.1488
0.0001,0.0023,0.1235,0.1006,-0.0788,-0.1575
-0.0001,0.0027,0.1229,0.1050,-0.0744,-0.1488
0.0000,0.0031,0.1232,0.1138,-0.0700,-0.1531
0.0006,0.0025,0.1233,0.1050,-0.0788,-0.1531
0.0005,0.0030,0.1237,0.1181,-0.0700,-0.1488
0.0004,0.0030,0.1237,0.1006,-0.0700,-0.1575
0.0003,0.0029,0.1236,0.1006,-0.0744,-0.1575
0.0001,0.0029,0.1232,0.0875,-0.0744,-0.1575
-0.0001,0.0024,0.1232,0.1050,-0.0656,-0.1575
0.0004,0.0026,0.1241,0.1094,-0.0788,-0.1488
0.0008,0.0022,0.1235,0.1006,-0.0613,-0.1531
0.0004,0.0024,0.1230,0.1050,-0.0613,-0.1400
0.0004,0.0025,0.1236,0.1181,-0.0744,-0.1575
0.0006,0.0024,0.1233,0.1006,-0.0788,-0.1444
0.0009,0.0029,0.1230,0.1138,-0.0700,-0.1488
-0.0001,0.0032,0.1233,0.1094,-0.0788,-0.1575
0.0002,0.0030,0.1232,0.1006,-0.0569,-0.1488
0.0012,0.0030,0.1238,0.1094,-0.0831,-0.1531
-0.0002,0.0023,0.1238,0.1050,-0.0788,-0.1531
0.0002,0.0029,0.1236,0.1050,-0.0875,-0.1575
0.0011,0.0025,0.1235,0.1050,-0.0831,-0.1531
0.0002,0.0025,0.1233,0.1181,-0.0744,-0.1444
0.0004,0.0024,0.1239,0.1138,-0.0744,-0.1488
0.0008,0.0030,0.1235,0.0919,-0.0788,-0.1444
0.0007,0.0025,0.1235,0.0963,-0.0700,-0.1444
0.0006,0.0020,0.1238,0.1050,-0.0919,-0.1531
-0.0001,0.0029,0.1238,0.1094,-0.0700,-0.1531
0.0007,0.0034,0.1235,0.1094,-0.0788,-0.1531
-0.0002,0.0025,0.1235,0.1138,-0.0700,-0.1488
0.0002,0.0025,0.1230,0.1094,-0.0744,-0.1531
-0.0003,0.0029,0.1235,0.1094,-0.0875,-0.1488
0.0005,0.0027,0.1232,0.1094,-0.0831,-0.1444
0.0008,0.0026,0.1229,0.1050,-0.0700,-0.1531
0.0004,0.0031,0.1236,0.1181,-0.0656,-0.1531
0.0000,0.0029,0.1234,0.1006,-0.0744,-0.1531
0.0005,0.0021,0.1236,0.1050,-0.0744,-0.1444
0.0004,0.0023,0.1231,0.1006,-0.0744,-0.1531
0.0001,0.0024,0.1242,0.1181,-0.0831,-0.1444
0.0005,0.0026,0.1233,0.1094,-0.0744,-0.1575
0.0001,0.0023,0.1238,0.1006,-0.0700,-0.1575
0.0001,0.0028,0.1236,0.1050,-0.0831,-0.1444
0.0004,0.0027,0.1240,0.1138,-0.0525,-0.1444
-0.0001,0.0030,0.1236,0.1094,-0.0831,-0.1531
0.0004,0.0026,0.1235,0.1138,-0.0656,-0.1619
0.0002,0.0029,0.1230,0.1050,-0.0788,-0.1488
0.0001,0.0035,0.1233,0.1138,-0.0788,-0.1531
0.0001,0.0027,0.1232,0.1138,-0.0875,-0.1444
-0.0002,0.0021,0.1239,0.1006,-0.0613,-0.1531
0.0002,0.0029,0.1236,0.1050,-0.0831,-0.1531
0.0005,0.0037,0.1238,0.1006,-0.0744,-0.1444
0.0008,0.0026,0.1233,0.1094,-0.0831,-0.1444
0.0002,0.0033,0.1231,0.1050,-0.0831,-0.1488
-0.0001,0.0032,0.1238,0.1006,-0.0963,-0.1444
0.0002,0.0030,0.1239,0.1006,-0.0831,-0.1531
0.0000,0.0030,0.1233,0.1138,-0.0656,-0.1488
0.0005,0.0027,0.1237,0.1050,-0.0788,-0.1575
0.0004,0.0032,0.1235,0.1006,-0.0831,-0.1531
-0.0001,0.0026,0.1236,0.1094,-0.0875,-0.1488
0.0008,0.0029,0.1230,0.1138,-0.0656,-0.1400
0.0002,0.0025,0.1231,0.1269,-0.0656,-0.1575
0.0005,0.0025,0.1232,0.1006,-0.0656,-0.1531
-0.0004,0.0026,0.1236,0.1138,-0.0919,-0.1619
0.0005,0.0027,0.1230,0.1138,-0.0744,-0.1400
0.0006,0.0033,0.1231,0.1050,-0.0744,-0.1488
0.0007,0.0023,0.1233,0.1006,-0.0700,-0.1531
0.0002,0.0029,0.1234,0.1138,-0.0788,-0.1575
-0.0002,0.0027,0.1238,0.1094,-0.0744,-0.1575
0.0005,0.0029,0.1230,0.1138,-0.0700,-0.1575
0.0002,0.0037,0.1236,0.0875,-0.0700,-0.1575
0.0003,0.0027,0.1235,0.1006,-0.0788,-0.1531
0.0005,0.0032,0.1236,0.1094,-0.0788,-0.1531
0.0004,0.0027,0.1229,0.1006,-0.0831,-0.1575
0.0001,0.0026,0.1230,0.1050,-0.0700,-0.1531
0.0002,0.0027,0.1230,0.1050,-0.0788,-0.1488
0.0004,0.0034,0.1235,0.1006,-0.0613,-0.1531
-0.0001,0.0026,0.1243,0.1138,-0.0788,-0.1488
0.0001,0.0023,0.1228,0.1094,-0.0613,-0.1531
0.0002,0.0027,0.1231,0.1050,-0.0919,-0.1488
0.0004,0.0030,0.1229,0.1181,-0.0700,-0.1575
0.0006,0.0029,0.1233,0.1050,-0.0700,-0.1488
0.0002,0.0031,0.1233,0.1094,-0.0613,-0.1575
-0.0004,0.0022,0.1235,0.1094,-0.0744,-0.1488
0.0004,0.0031,0.1234,0.1050,-0.0788,-0.1488
-0.0001,0.0015,0.1232,0.1269,-0.0700,-0.1531
0.0005,0.0033,0.1236,0.1094,-0.0788,-0.1575
0.0002,0.0026,0.1234,0.1094,-0.0700,-0.1400
0.0005,0.0024,0.1233,0.1094,-0.0744,-0.1531
0.0005,0.0022,0.1233,0.1181,-0.0656,-0.1400
0.0002,0.0023,0.1232,0.1138,-0.0788,-0.1619
-0.0001,0.0027,0.1236,0.1050,-0.0831,-0.1531
0.0002,0.0028,0.1230,0.1050,-0.0875,-0.1619
0.0002,0.0028,0.1233,0.1050,-0.0613,-0.1488
0.0008,0.0030,0.1236,0.1050,-0.0656,-0.1531
-0.0001,0.0031,0.1234,0.1138,-0.0788,-0.1531
0.0003,0.0025,0.1231,0.1138,-0.0744,-0.1444
0.0001,0.0029,0.1233,0.1138,-0.0569,-0.1488
-0.0002,0.0028,0.1234,0.0963,-0.0831,-0.1531
0.0002,0.0032,0.1234,0.1138,-0.0744,-0.1531
0.0007,0.0024,0.1235,0.1050,-0.0831,-0.1575
0.0000,0.0027,0.1232,0.1050,-0.0613,-0.1488
0.0000,0.0027,0.1230,0.1050,-0.0875,-0.1531
0.0003,0.0027,0.1233,0.1094,-0.0788,-0.1531
0.0004,0.0029,0.1237,0.1050,-0.0788,-0.1531
0.0003,0.0032,0.1233,0.1094,-0.0744,-0.1444
-0.0001,0.0030,0.1235,0.1006,-0.0744,-0.1488
0.0001,0.0032,0.1228,0.1050,-0.0788,-0.1575
0.0001,0.0027,0.1240,0.1006,-0.0700,-0.1531
0.0001,0.0032,0.1236,0.1094,-0.0744,-0.1531
0.0002,0.0028,0.1236,0.1094,-0.0700,-0.1488
0.0002,0.0028,0.1234,0.0875,-0.0700,-0.1575
-0.0005,0.0022,0.1233,0.1138,-0.0788,-0.1444
-0.0002,0.0023,0.1233,0.1181,-0.0744,-0.1531
0.0001,0.0032,0.1232,0.1138,-0.0744,-0.1531
-0.0001,0.0026,0.1237,0.1094,-0.0919,-0.1531
0.0000,0.0030,0.1232,0.1094,-0.0788,-0.1531
0.0005,0.0027,0.1232,0.1094,-0.0700,-0.1531
-0.0001,0.0024,0.1237,0.1006,-0.0831,-0.1444
0.0005,0.0029,0.1232,0.1138,-0.0875,-0.1488
0.0004,0.0031,0.1236,0.1006,-0.0569,-0.1488
0.0002,0.0025,0.1231,0.1050,-0.0656,-0.1575
0.0002,0.0026,0.1238,0.1050,-0.0700,-0.1619
0.0005,0.0032,0.1243,0.1050,-0.0700,-0.1531
0.0002,0.0032,0.1235,0.1094,-0.0613,-0.1488
0.0004,0.0027,0.1233,0.1094,-0.0569,-0.1575
0.0001,0.0026,0.1232,0.1138,-0.0700,-0.1488
-0.0154,0.0029,0.1234,0.1050,-0.0700,-0.1575
0.0000,0.0029,0.1236,0.1094,-0.0875,-0.1488
0.0002,0.0029,0.1236,0.1094,-0.0744,-0.1531
0.0001,0.0026,0.1238,0.1138,-0.0700,-0.1488
0.0003,0.0026,0.1239,0.1050,-0.0744,-0.1531
0.0001,0.0025,0.1233,0.1138,-0.0569,-0.1531
0.0000,0.0034,0.1235,0.1138,-0.0569,-0.1531
0.0002,0.0028,0.1237,0.1094,-0.0831,-0.1444
0.0000,0.0022,0.1231,0.1094,-0.0744,-0.1575
0.0004,0.0030,0.1235,0.1006,-0.0788,-0.1575
0.0001,0.0031,0.1233,0.1138,-0.0744,-0.1444
0.0006,0.0029,0.1234,0.1094,-0.0744,-0.1531
0.0007,0.0027,0.1237,0.1138,-0.0788,-0.1488
0.0004,0.0035,0.1233,0.1138,-0.0656,-0.1400
-0.0003,0.0020,0.1229,0.1050,-0.0613,-0.1488
0.0001,0.0029,0.1234,0.1094,-0.0700,-0.1575
0.0000,0.0026,0.1227,0.1138,-0.0700,-0.1488
0.0001,0.0026,0.1232,0.1006,-0.0788,-0.1575
0.0003,0.0025,0.1234,0.0963,-0.0613,-0.1488
0.0005,0.0029,0.1235,0.1094,-0.0613,-0.1531
0.0005,0.0024,0.1231,0.1138,-0.0656,-0.1488
0.0002,0.0033,0.1235,0.1006,-0.0875,-0.1575
0.0005,0.0021,0.1225,0.1050,-0.0788,-0.1356
0.0004,0.0029,0.1236,0.1138,-0.0525,-0.1619
0.0005,0.0026,0.1232,0.1006,-0.0700,-0.1488
0.0001,0.0032,0.1235,0.1094,-0.0700,-0.1575
0.0003,0.0026,0.1229,0.1050,-0.0656,-0.1531
0.0002,0.0027,0.1232,0.1050,-0.0700,-0.1488
0.0002,0.0027,0.1235,0.1006,-0.0788,-0.1575
0.0001,0.0026,0.1235,0.1050,-0.0788,-0.1488
0.0004,0.0024,0.1231,0.1181,-0.0788,-0.1531
0.0003,0.0025,0.1236,0.1138,-0.0744,-0.1531
0.0005,0.0029,0.1233,0.1094,-0.0656,-0.1531
0.0002,0.0029,0.1233,0.1050,-0.0700,-0.1444
0.0001,0.0029,0.1232,0.1094,-0.0788,-0.1488
-0.0002,0.0030,0.1233,0.0963,-0.0700,-0.1575
0.0002,0.0026,0.1230,0.1094,-0.0831,-0.1575
0.0005,0.0032,0.1236,0.1050,-0.0656,-0.1488
0.0002,0.0031,0.1235,0.1050,-0.0700,-0.1488
-0.0001,0.0026,0.1235,0.1225,-0.0613,-0.1531
0.0002,0.0032,0.1236,0.1094,-0.0788,-0.1531
0.0001,0.0029,0.1231,0.1094,-0.0788,-0.1575
-0.0001,0.0027,0.1233,0.1094,-0.0788,-0.1488
0.0005,0.0029,0.1236,0.1181,-0.0656,-0.1663
0.0007,0.0030,0.1236,0.1138,-0.0613,-0.1444
0.0000,0.0027,0.1232,0.0963,-0.0613,-0.1488
0.0008,0.0026,0.1232,0.1138,-0.0744,-0.1488
-0.0001,0.0028,0.1232,0.1094,-0.0656,-0.1444
0.0002,0.0031,0.1233,0.1269,-0.0656,-0.1488
0.0004,0.0027,0.1232,0.1050,-0.0656,-0.1488
0.0002,0.0027,0.1227,0.1138,-0.0831,-0.1575
0.0001,0.0030,0.1230,0.1006,-0.0656,-0.1531
-0.0002,0.0029,0.1233,0.1138,-0.0831,-0.1531
0.0005,0.0035,0.1232,0.0963,-0.0744,-0.1444
0.0005,0.0031,0.1237,0.1094,-0.0744,-0.1531
0.0003,0.0027,0.1232,0.1050,-0.0700,-0.1531
0.0002,0.0030,0.1240,0.1138,-0.0569,-0.1444
0.0001,0.0023,0.1239,0.1094,-0.0613,-0.1444
0.0002,0.0026,0.1240,0.1138,-0.0656,-0.1531
-0.0001,0.0027,0.1230,0.1138,-0.0656,-0.1444
0.0003,0.0026,0.1232,0.1006,-0.0700,-0.1488
0.0005,0.0029,0.1240,0.1094,-0.0700,-0.1444
0.0001,0.0023,0.1233,0.1050,-0.0788,-0.1575
0.0004,0.0029,0.1233,0.1050,-0.0656,-0.1488
0.0007,0.0024,0.1232,0.1050,-0.0700,-0.1663
0.0001,0.0026,0.1235,0.1006,-0.0744,-0.1531
0.0007,0.0030,0.1236,0.1006,-0.0700,-0.1531
0.0004,0.0029,0.1229,0.1138,-0.0744,-0.1531
-0.0001,0.0029,0.1236,0.0963,-0.0656,-0.1531
-0.0002,0.0035,0.1236,0.0963,-0.0788,-0.1531
-0.0001,0.0027,0.1233,0.1138,-0.0700,-0.1488
0.0001,0.0025,0.1227,0.1050,-0.0875,-0.1488
0.0006,0.0028,0.1236,0.1050,-0.0744,-0.1575
-0.0001,0.0029,0.1241,0.1006,-0.0788,-0.1531
0.0000,0.0025,0.1232,0.1094,-0.0744,-0.1531
0.0001,0.0025,0.1232,0.0963,-0.0700,-0.1488
0.0004,0.0029,0.1233,0.1050,-0.0831,-0.1619
0.0007,0.0030,0.1235,0.1094,-0.0875,-0.1619
0.0001,0.0026,0.1233,0.1094,-0.0700,-0.1531
-0.0001,0.0033,0.1235,0.1138,-0.0744,-0.1531
-0.0001,0.0027,0.1241,0.0963,-0.0831,-0.1531
0.0002,0.0021,0.1236,0.1050,-0.0788,-0.1531
0.0004,0.0026,0.1233,0.1094,-0.0613,-0.1575
0.0002,0.0032,0.1233,0.1094,-0.0700,-0.1575
0.0000,0.0024,0.1232,0.1181,-0.0831,-0.1488
0.0004,0.0035,0.1232,0.1050,-0.0700,-0.1488
0.0001,0.0029,0.1237,0.1094,-0.0700,-0.1488
0.0005,0.0026,0.1232,0.0963,-0.0569,-0.1531
0.0004,0.0028,0.1231,0.1050,-0.0656,-0.1488
0.0003,0.0030,0.1232,0.1006,-0.0700,-0.1575
0.0002,0.0026,0.1237,0.1050,-0.0788,-0.1531
0.0001,0.0026,0.1231,0.1138,-0.0525,-0.1488
0.0001,0.0030,0.1228,0.1094,-0.0831,-0.1488
0.0004,0.0030,0.1230,0.1094,-0.0656,-0.1575
0.0001,0.0026,0.1232,0.0963,-0.0744,-0.1400
-0.0001,0.0026,0.1238,0.1094,-0.0875,-0.1531
0.0004,0.0027,0.1233,0.1006,-0.0656,-0.1488
-0.0001,0.0021,0.1240,0.1006,-0.0744,-0.1575
0.0007,0.0027,0.1232,0.1050,-0.0656,-0.1444
0.0005,0.0027,0.1227,0.1094,-0.0875,-0.1575
0.0001,0.0023,0.1237,0.1094,-0.0656,-0.1444
0.0003,0.0033,0.1238,0.1006,-0.0744,-0.1531
0.0000,0.0024,0.1235,0.1094,-0.0788,-0.1444
-0.0003,0.0026,0.1235,0.0963,-0.0788,-0.1531
0.0007,0.0027,0.1232,0.1094,-0.0875,-0.1488
-0.0001,0.0024,0.1241,0.1138,-0.0744,-0.1531
-0.0001,0.0023,0.1243,0.1050,-0.0700,-0.1575
0.0004,0.0028,0.1232,0.1050,-0.0700,-0.1531
0.0006,0.0026,0.1233,0.1181,-0.0700,-0.1488
0.0003,0.0024,0.1232,0.1138,-0.0788,-0.1531
-0.0001,0.0029,0.1227,0.1138,-0.0788,-0.1531
0.0006,0.0028,0.1232,0.1094,-0.0744,-0.1619
0.0001,0.0027,0.1235,0.1050,-0.0744,-0.1531
0.0000,0.0028,0.1238,0.1094,-0.0700,-0.1531
0.0005,0.0033,0.1230,0.0919,-0.0831,-0.1531
0.0004,0.0028,0.1235,0.1050,-0.0875,-0.1619
0.0000,0.0023,0.1238,0.1138,-0.0788,-0.1488
0.0005,0.0028,0.1237,0.1225,-0.0700,-0.1488
0.0007,0.0030,0.1240,0.1138,-0.0700,-0.1488
0.0004,0.0032,0.1227,0.1050,-0.0744,-0.1575
0.0006,0.0030,0.1237,0.1050,-0.0700,-0.1531
0.0003,0.0029,0.1234,0.1138,-0.0875,-0.1575
0.0004,0.0026,0.1236,0.0919,-0.0875,-0.1488
0.0002,0.0027,0.1232,0.1225,-0.0875,-0.1531
0.0000,0.0029,0.1236,0.1050,-0.0788,-0.1531
0.0005,0.0031,0.1234,0.1050,-0.0700,-0.1488
0.0007,0.0032,0.1238,0.1006,-0.0700,-0.1531
-0.0002,0.0021,0.1232,0.1006,-0.0656,-0.1531
-0.0005,0.0022,0.1234,0.1006,-0.0744,-0.1619
0.0002,0.0030,0.1234,0.1138,-0.0744,-0.1488
0.0002,0.0030,0.1242,0.0919,-0.0700,-0.1531
0.0000,0.0027,0.1232,0.0963,-0.0831,-0.1531
0.0001,0.0026,0.1238,0.1094,-0.0656,-0.1575
0.0004,0.0030,0.1232,0.1094,-0.0744,-0.1488
0.0001,0.0027,0.1238,0.1050,-0.0788,-0.1575
0.0005,0.0024,0.1235,0.1138,-0.0831,-0.1488
0.0006,0.0030,0.1234,0.1050,-0.0700,-0.1619
0.0003,0.0032,0.1234,0.1006,-0.0700,-0.1400
0.0006,0.0033,0.1236,0.1050,-0.0744,-0.1575
0.0003,0.0026,0.1238,0.1138,-0.0700,-0.1488
-0.0002,0.0026,0.1229,0.1094,-0.0744,-0.1575
0.0004,0.0032,0.1237,0.1094,-0.0569,-0.1531
0.0003,0.0024,0.1241,0.1094,-0.0700,-0.1531
0.0005,0.0027,0.1236,0.1094,-0.0831,-0.1575
0.0000,0.0029,0.1232,0.1006,-0.0656,-0.1444
0.0004,0.0030,0.1233,0.1138,-0.0481,-0.1575
0.0005,0.0033,0.1230,0.1181,-0.0788,-0.1488
0.0005,0.0023,0.1237,0.0919,-0.0788,-0.1575
0.0004,0.0031,0.1232,0.1225,-0.0831,-0.1444
0.0001,0.0030,0.1232,0.1050,-0.0788,-0.1575
0.0004,0.0030,0.1235,0.1181,-0.0656,-0.1619
0.0001,0.0032,0.1227,0.1050,-0.0788,-0.1488
0.0004,0.0027,0.1235,0.1094,-0.0831,-0.1488
0.0002,0.0026,0.1232,0.0963,-0.0875,-0.1531
-0.0005,0.0026,0.1235,0.1006,-0.0788,-0.1531
0.0005,0.0032,0.1236,0.1138,-0.0788,-0.1531
0.0003,0.0026,0.1235,0.1181,-0.0788,-0.1575
0.0005,0.0030,0.1240,0.1181,-0.0744,-0.1488
0.0001,0.0025,0.1243,0.1181,-0.0744,-0.1531
0.0006,0.0030,0.1236,0.1094,-0.0788,-0.1575
0.0001,0.0026,0.1229,0.1094,-0.0700,-0.1531
0.0004,0.0031,0.1246,0.1138,-0.0788,-0.1488
0.0005,0.0026,0.1225,0.1006,-0.0919,-0.1488
0.0004,0.0026,0.1231,0.1225,-0.0831,-0.1488
-0.0154,0.0024,0.1232,0.1138,-0.0700,-0.1575
